421.91687	31
423.4003	28
424.8837	40
426.3671	11
427.85049	13
429.33389	47
430.81729	-5
432.30069	9
433.78409	32
435.26746	-4
436.75085	-23
438.23422	51
439.71759	-25
441.20096	33
442.68433	50
444.16769	-11
445.65103	15
447.1344	35
448.61774	-45
450.10107	77
451.58441	27
453.06775	38
454.55109	57
456.03442	5
457.51773	51
459.00107	32
460.48438	57
461.96768	15
463.45099	-44
464.9343	6
466.4176	22
467.90088	64
469.38419	65
470.86746	52
472.35074	0
473.83401	5
475.31729	45
476.80057	52
478.28381	22
479.76709	70
481.25034	72
482.73358	86
484.21683	42
485.70007	61
487.18329	54
488.66653	-12
490.14975	56
491.63297	36
493.11618	75
494.5994	67
496.08261	80
497.5658	97
499.04901	41
500.5322	46
502.01538	54
503.49857	84
504.98175	41
506.4649	77
507.94809	46
509.43124	38
510.9144	67
512.39758	88
513.88068	98
515.36383	95
516.84698	71
518.33008	99
519.81323	82
521.29633	70
522.77948	95
524.26257	74
525.74567	61
527.22876	87
528.71185	114
530.19495	72
531.67804	136
533.16113	143
534.64417	159
536.12726	83
537.61029	164
539.09338	113
540.57642	115
542.05945	107
543.54248	156
545.02551	102
546.50854	130
547.99158	151
549.47461	151
550.95758	136
552.44061	198
553.92358	186
555.40662	153
556.88959	193
558.37256	136
559.85553	205
561.3385	196
562.82147	248
564.30444	172
565.78735	223
567.27032	188
568.75323	174
570.23621	213
571.71912	205
573.20203	200
574.68494	266
576.16785	219
577.65076	218
579.13367	260
580.61652	256
582.09943	260
583.58228	286
585.06519	184
586.54803	249
588.03088	245
589.51373	241
590.99658	279
592.47943	209
593.96222	227
595.44507	241
596.92786	239
598.41071	207
599.89349	229
601.37628	280
602.85907	219
604.34186	207
605.82465	272
607.30743	284
608.79016	290
610.27295	270
611.75568	262
613.2384	227
614.72113	240
616.20386	253
617.68658	211
619.16931	195
620.65204	218
622.1347	206
623.61743	194
625.1001	220
626.58276	222
628.06549	171
629.54816	221
631.03076	205
632.51343	189
633.99609	194
635.4787	197
636.96136	217
638.44397	176
639.92657	234
641.40918	202
642.89178	223
644.37439	306
645.85693	239
647.33954	324
648.82208	410
650.30469	473
651.78723	1060
653.26978	1798
654.75232	3622
656.23486	11286
657.71735	45570
659.19989	91924
660.68237	122581
662.16492	134321
663.6474	128323
665.12988	85280
666.61237	29313
668.09479	4988
669.57727	1399
671.05975	540
672.54218	349
674.0246	292
675.50702	277
676.98944	264
678.47186	254
679.95428	184
681.43671	190
682.91907	191
684.40143	172
685.88385	182
687.36621	153
688.84857	175
690.33087	192
691.81323	120
693.29559	199
694.77789	146
696.26019	205
697.74249	127
699.22479	181
700.70709	184
702.18939	197
703.67163	161
705.15393	172
706.63617	152
708.11841	213
709.60065	220
711.08289	217
712.56512	203
714.0473	164
715.52954	193
717.01172	224
718.4939	220
719.97607	152
721.45825	183
722.94043	149
724.42261	184
725.90472	159
727.38684	185
728.86896	242
730.35107	163
731.83319	219
733.31531	216
734.79736	214
736.27948	184
737.76154	223
739.24359	211
740.72565	177
742.2077	224
743.68976	145
745.17175	222
746.65381	168
748.1358	153
749.6178	211
751.09979	174
752.58173	135
754.06372	171
755.54565	204
757.02765	147
758.50958	143
759.99152	168
761.47345	201
762.95532	148
764.43726	137
765.91913	182
767.401	161
768.88287	97
770.36475	193
771.84662	215
773.32849	147
774.8103	159
776.29211	169
777.77393	165
779.25574	188
780.73755	79
782.21936	115
783.70111	147
785.18286	165
786.66461	106
788.14636	115
789.62811	49
791.10986	118
792.59155	119
794.0733	152
795.55499	95
797.03668	78
798.51831	131
800	130
801.48169	133
802.96332	139
804.44495	36
805.92657	79
807.4082	67
808.88977	80
810.3714	79
811.85297	108
813.33453	42
814.8161	77
816.29767	78
817.77917	55
819.26074	17
820.74225	80
822.22375	57
823.70526	94
825.18677	31
826.66821	-1
828.14972	61
829.63116	36
831.11261	98
832.59406	109
834.0755	88
835.55688	111
837.03827	36
838.51971	53
840.0011	99
841.48242	46
842.96381	66
844.44513	61
845.92651	38
847.40784	19
848.88916	-11
850.37042	34
851.85175	82
853.33301	113
854.81427	37
856.29553	63
857.77679	25
859.25806	36
860.73926	7
862.22052	129
863.70172	43
865.18292	116
866.66406	42
868.14526	52
869.6264	77
871.10754	54
872.58868	14
874.06982	36
875.5509	38
877.03204	36
878.51312	69
879.9942	64
881.47528	20
882.95636	56
884.43738	53
885.9184	59
887.39941	85
888.88043	-1
890.36145	37
891.84241	51
893.32343	23
894.80438	32
896.28534	40
897.76624	82
899.24719	87
900.72809	62
902.20898	88
903.68988	65
905.17078	85
906.65161	22
908.13251	-3
909.61334	83
911.09418	38
912.57495	82
914.05579	50
915.53656	103
917.01733	69
918.49811	141
919.97888	64
921.45966	113
922.94037	105
924.42108	104
925.90179	81
927.38251	95
928.86316	69
930.34387	121
931.82452	90
933.30518	129
934.78577	172
936.26642	159
937.74701	155
939.2276	84
940.70819	111
942.18878	159
943.66931	118
945.14984	151
946.63037	183
948.1109	110
949.59143	163
951.0719	222
952.55243	193
954.0329	216
955.51331	215
956.99377	199
958.47418	279
959.95459	256
961.435	183
962.91541	286
964.39581	306
965.87616	324
967.35651	251
968.83685	372
970.31714	285
971.79749	332
973.27777	303
974.75806	367
976.23834	360
977.71857	357
979.19885	384
980.67908	412
982.1593	486
983.63953	382
985.11969	429
986.59985	453
988.08002	479
989.56018	474
991.04034	440
992.52045	545
994.00055	438
995.48065	488
996.96075	528
998.4408	586
999.9209	579
1001.4009	556
1002.8809	603
1004.361	634
1005.8409	603
1007.3209	672
1008.8009	621
1010.2809	626
1011.7608	659
1013.2408	672
1014.7207	711
1016.2006	786
1017.6805	724
1019.1603	721
1020.6402	714
1022.1201	733
1023.5999	732
1025.0797	820
1026.5596	762
1028.0393	804
1029.519	756
1030.9989	810
1032.4786	830
1033.9584	814
1035.4381	844
1036.9177	853
1038.3975	799
1039.8772	881
1041.3568	836
1042.8364	909
1044.316	881
1045.7957	883
1047.2753	870
1048.7549	905
1050.2345	950
1051.714	915
1053.1936	916
1054.6731	912
1056.1526	879
1057.6322	903
1059.1116	857
1060.5911	942
1062.0706	915
1063.55	870
1065.0294	850
1066.5089	892
1067.9883	883
1069.4677	872
1070.947	936
1072.4264	888
1073.9058	932
1075.385	882
1076.8644	865
1078.3436	859
1079.8229	847
1081.3021	870
1082.7814	857
1084.2606	839
1085.7399	749
1087.2191	797
1088.6982	806
1090.1775	865
1091.6566	733
1093.1357	769
1094.6149	772
1096.094	806
1097.5731	780
1099.0521	770
1100.5313	758
1102.0103	689
1103.4894	675
1104.9684	694
1106.4474	638
1107.9264	671
1109.4053	627
1110.8843	614
1112.3632	651
1113.8422	603
1115.321	610
1116.7999	616
1118.2788	600
1119.7577	593
1121.2366	537
1122.7153	526
1124.1942	497
1125.673	462
1127.1517	453
1128.6305	408
1130.1093	404
1131.588	378
1133.0668	363
1134.5454	353
1136.0242	339
1137.5028	330
1138.9814	290
1140.4601	272
1141.9387	262
1143.4174	255
1144.8959	210
1146.3745	262
1147.853	209
1149.3315	292
1150.8102	221
1152.2887	203
1153.7671	278
1155.2456	255
1156.7241	240
1158.2025	211
1159.6809	225
1161.1593	168
1162.6377	300
1164.1161	277
1165.5945	236
1167.0729	271
1168.5511	242
1170.0294	230
1171.5078	204
1172.9861	178
1174.4644	194
1175.9425	220
1177.4208	170
1178.899	170


Date and Time:                Thu Sep 12 12:04:17.000 2019
Software Version:             4.30.30034.0
Temperature (C):              -70
Model:                        DU490_17
Data Type:                    Counts (Bg Corrected)
Acquisition Mode:             Accumulate
Trigger Mode:                 Internal
Exposure Time (secs):         5
Accumulate Cycle Time (secs): 5.0052
Frequency (Hz):               0.19979
Number of Accumulations:      5
Readout Mode:                 Full Vertical Binning
Horizontal binning:           1
Extended Dynamic Range:       off
Horizontally flipped:         true
Vertical Shift Speed (usecs): 0
Pixel Readout Time (usecs):   10
Serial Number:                22317
Pre-Amplifier Gain:           1.000000
Spurious Noise Filter Mode:   No Filter
Photon counted:               false
Data Averaging Filter Mode:   No Filter
SR328i:
Serial Number:                
Wavelength (nm):              800
Grating Groove Density (l/mm):50.032
Grating Blaze:                600nm
Output Flipper Port:          Side
Filter:                       4-Empty 1

